Folder: QERaman/examples/mos2/reference (part 2)

File: raman_spectra3.dat
#Raman spectra
#Laser energy   2.54 eV
#Raman shift (cm-1), Raman Spectra (XX,YY,ZZ,s+s+,s-s-,XY,YX,s+s-,s-s+)
   350.0000  125.671  122.27  66.4692  67.5697  67.0936  55.7567  54.9235  112  111.957
   351.0025  131.959  128.39  69.0561  70.2001  69.7061  59.2836  58.3975  119.085  119.039
   352.0050  138.761  135.011  71.797  72.9872  72.4743  63.1562  62.2121  126.864  126.816
   353.0075  146.139  142.193  74.7044  75.9436  75.4107  67.4214  66.4134  135.432  135.38
   354.0100  154.163  150.002  77.792  79.0835  78.5294  72.134  71.0553  144.899  144.843
   355.0125  162.914  158.521  81.075  82.4222  81.8458  77.3586  76.2017  155.394  155.334
   356.0150  172.49  167.843  84.5703  85.9769  85.3768  83.1723  81.9282  167.072  167.008
   357.0175  183.005  178.078  88.2965  89.7667  89.1415  89.6667  88.3253  180.118  180.049
   358.0201  194.593  189.359  92.2744  93.8128  93.161  96.9525  95.5018  194.753  194.678
   359.0226  207.415  201.842  96.5274  98.1388  97.4587  105.163  103.589  211.246  211.166
   360.0251  221.667  215.717  101.081  102.771  102.061  114.462  112.749  229.926  229.838
   361.0276  237.585  231.215  105.965  107.74  106.997  125.05  123.178  251.194  251.098
   362.0301  255.46  248.619  111.211  113.077  112.301  137.176  135.122  275.552  275.446
   363.0326  275.65  268.277  116.857  118.822  118.01  151.152  148.889  303.626  303.51
   364.0351  298.605  290.63  122.943  125.016  124.165  167.375  164.868  336.213  336.084
   365.0376  324.897  316.232  129.517  131.708  130.816  186.35  183.559  374.329  374.186
   366.0401  355.257  345.797  136.633  138.951  138.017  208.737  205.609  419.296  419.136
   367.0426  390.639  380.255  144.352  146.81  145.83  235.4  231.873  472.854  472.673
   368.0451  432.309  420.839  152.743  155.356  154.327  267.499  263.49  537.329  537.124
   369.0476  481.973  469.211  161.887  164.672  163.592  306.61  302.015  615.89  615.655
   370.0501  541.98  527.659  171.876  174.853  173.72  354.924  349.603  712.933  712.661
   371.0526  615.642  599.413  182.82  186.011  184.823  415.55  409.32  834.705  834.387
   372.0551  707.755  689.145  194.841  198.275  197.033  493.022  485.629  990.311  989.933
   373.0576  825.476  803.829  208.087  211.8  210.505  594.146  585.236  1193.42  1192.96
   374.0602  979.871  954.249  222.731  226.766  225.424  729.504  718.562  1465.28  1464.72
   375.0627  1188.78  1157.79  238.974  243.393  242.014  916.226  902.481  1840.29  1839.58
   376.0652  1482.4  1443.88  257.059  261.944  260.554  1183.41  1165.66  2376.88  2375.97
   377.0677  1914.92  1865.33  277.275  282.75  281.392  1583.44  1559.68  3180.23  3179.01
   378.0702  2590.56  2523.71  299.969  306.229  304.995  2217.28  2184  4453.01  4451.31
   379.0727  3726.6  3630.75  325.564  332.953  332.028  3295.72  3246.25  6618.44  6615.9
   380.0752  5815.06  5665.97  354.575  363.765  363.551  5296.65  5217.14  10635.8  10631.7
   381.0777  10002.8  9747.02  387.636  400.057  401.471  9334.43  9194.3  18742.1  18734.9
   382.0802  18051.8  17591  425.537  443.775  448.523  17117  16860.1  34370.4  34357.2
   383.0827  24624.6  23996.4  469.267  492.436  499.795  23433.9  23082.1  47081.3  47063.6
   384.0852  17756.1  17302.6  520.079  539.544  543.387  16698.4  16447.7  33567.1  33554.8
   385.0877  9966.86  9711.4  579.589  594.896  594.748  9086.01  8949.62  18265.5  18258.8
   386.0902  6005.3  5850.46  649.897  663.7  661.202  5176.25  5098.57  10404.8  10400.9
   387.0927  4087.19  3980.92  733.773  747.605  743.569  3233.39  3184.88  6498.81  6496.41
   388.0952  3106.63  3024.99  834.927  849.662  844.372  2181.99  2149.27  4385.24  4383.61
   389.0977  2593.95  2524.98  958.429  974.71  968.199  1561.89  1538.49  3138.79  3137.61
   390.1003  2346.27  2283.14  1111.34  1129.79  1121.94  1169.46  1151.95  2349.99  2349.1
   391.1028  2272.95  2211.1  1303.73  1325.06  1315.64  906.778  893.222  1822.02  1821.33
   392.1053  2336.55  2272.32  1550.34  1575.46  1564.09  722.911  712.127  1452.46  1451.9
   393.1078  2530.63  2460.47  1873.41  1903.58  1889.7  589.467  580.7  1184.22  1183.76
   394.1103  2873.63  2793.41  2307.73  2344.72  2327.53  489.704  482.454  983.671  983.276
   395.1128  3413.09  3317.28  2909.99  2956.5  2934.72  413.27  407.194  829.978  829.634
   396.1153  4241.84  4122.28  3777.33  3837.58  3809.22  353.512  348.372  709.759  709.448
   397.1178  5536.59  5380.05  5086.31  5167.31  5129.05  306.022  301.653  614.127  613.836
   398.1203  7647.75  7431.04  7181.26  7295.51  7241.41  267.834  264.131  537.067  536.78
   399.1228  11321.1  10999.8  10790.7  10962.2  10880.9  236.988  233.907  474.529  474.221
   400.1253  18269.3  17750.3  17584  17863.4  17730.7  212.383  209.971  424.043  423.673
   401.1278  32436.6  31514.6  31403.8  31902.7  31665.7  193.918  192.393  384.819  384.297
   402.1303  58536.7  56872.2  56841.4  57744.4  57315.3  181.986  181.763  356.939  356.119
   403.1328  72883.1  70810.5  70829.5  71954.6  71419.8  169.672  170.251  330.049  329.07
   404.1353  48077.1  46710.1  46685  47426.6  47074.2  149.231  149.051  292.679  292.006
   405.1378  26124.7  25382  25317.7  25720  25528.8  131.378  130.523  260.086  259.683
   406.1404  15139.8  14709.5  14630.2  14862.6  14752.2  117.951  116.826  234.746  234.482
   407.1429  9616.96  9343.75  9260.8  9407.98  9338.1  107.247  106.046  214.062  213.87
   408.1454  6582.35  6395.43  6313.6  6413.97  6366.34  98.2806  97.0842  196.499  196.349
   409.1479  4768.48  4633.12  4554.35  4626.77  4592.42  90.5553  89.3973  181.246  181.123
   410.1504  3607.53  3505.18  3430.2  3484.75  3458.89  83.7883  82.6822  167.821  167.717
   411.1529  2822.97  2742.92  2671.92  2714.43  2694.29  77.7969  76.7473  155.899  155.809
   412.1554  2269.17  2204.85  2137.79  2171.82  2155.71  72.4515  71.4587  145.241  145.161
   413.1579  1864.17  1811.35  1748.07  1775.9  1762.74  67.6544  66.7163  135.662  135.59
   414.1604  1559.22  1515.07  1455.35  1478.53  1467.57  63.3282  62.4422  127.014  126.949
   415.1629  1323.94  1286.47  1230.08  1249.68  1240.42  59.4106  58.5735  119.177  119.118
   416.1654  1138.61  1106.4  1053.11  1069.9  1061.97  55.85  55.0585  112.05  111.996
   417.1679  990.014  962.017  911.613  926.151  919.291  52.6032  51.8543  105.549  105.498
   418.1704  869.031  844.467  796.736  809.449  803.455  49.6338  48.9243  99.5999  99.553
   419.1729  769.201  747.468  702.218  713.429  708.147  46.9105  46.2377  94.1426  94.0989
   420.1754  685.847  666.477  623.53  633.49  628.802  44.4066  43.7679  89.1237  89.0828
   421.1779  615.517  598.14  557.332  566.241  562.051  42.0988  41.4919  84.497  84.4587
   422.1805  555.619  539.94  501.121  509.137  505.371  39.9671  39.3898  80.2226  80.1866
   423.1830  504.178  489.956  452.988  460.239  456.835  37.994  37.4441  76.2654  76.2314
   424.1855  459.663  446.701  411.459  418.051  414.96  36.1638  35.6396  72.5947  72.5626
   425.1880  420.877  409.013  375.381  381.4  378.58  34.4632  33.9629  69.1834  69.1529
   426.1905  386.871  375.97  343.841  349.359  346.777  32.8802  32.4022  66.0075  65.9786
   427.1930  356.885  346.832  316.11  321.189  318.816  31.404  30.947  63.0458  63.0183
   428.1955  330.306  321.005  291.599  296.29  294.101  30.0253  29.5879  60.2794  60.2533
   429.1980  306.632  298  269.829  274.176  272.15  28.7356  28.3166  57.6915  57.6667
   430.2005  285.452  277.419  250.407  254.446  252.567  27.5275  27.1258  55.2671  55.2434
   431.2030  266.425  258.929  233.006  236.771  235.023  26.3941  26.0086  52.9927  52.97
   432.2055  249.266  242.256  217.357  220.875  219.245  25.3295  24.9593  50.856  50.8343
   433.2080  233.737  227.165  203.231  206.528  205.003  24.3281  23.9724  48.8462  48.8255
   434.2105  219.637  213.463  190.438  193.535  192.106  23.3851  23.0429  46.9535  46.9336
   435.2130  206.793  200.982  178.816  181.731  180.389  22.496  22.1666  45.1689  45.1498
   436.2155  195.061  189.581  168.225  170.975  169.713  21.6567  21.3395  43.4843  43.466
   437.2180  184.314  179.137  158.547  161.148  159.958  20.8637  20.5579  41.8924  41.8748
   438.2206  174.445  169.547  149.68  152.145  151.022  20.1135  19.8186  40.3865  40.3696
   439.2231  165.36  160.718  141.537  143.878  142.816  19.4031  19.1185  38.9605  38.9442
   440.2256  156.977  152.572  134.04  136.269  135.263  18.7298  18.455  37.6088  37.5931
   441.2281  149.227  145.04  127.124  129.249  128.296  18.091  17.8255  36.3264  36.3113
   442.2306  142.046  138.061  120.729  122.761  121.855  17.4844  17.2277  35.1087  35.0941
   443.2331  135.381  131.584  114.805  116.753  115.891  16.9079  16.6596  33.9512  33.9372
   444.2356  129.183  125.561  109.306  111.178  110.357  16.3595  16.1192  32.8502  32.8366
   445.2381  123.41  119.951  104.193  105.997  105.215  15.8374  15.6047  31.802  31.7889
   446.2406  118.025  114.717  99.4311  101.175  100.428  15.3399  15.1145  30.8033  30.7906
   447.2431  112.995  109.829  94.9883  96.6808  95.9661  14.8656  14.6471  29.851  29.8387
   448.2456  108.29  105.256  90.837  92.4862  91.8021  14.413  14.2011  28.9423  28.9304
   449.2481  103.885  100.975  86.9524  88.5675  87.9118  13.9808  13.7752  28.0745  28.063
   450.0000  100.765  97.9423  84.2005  85.7966  85.1609  13.6693  13.4683  27.4491  27.4379

File: raman_spectra4.dat
#Raman spectra
#Laser energy   2.78 eV
#Raman shift (cm-1), Raman Spectra (XX,YY,ZZ,s+s+,s-s-,XY,YX,s+s-,s-s+)
   350.0000  166.373  159.86  60.8038  47.6813  47.4108  113.462  112.254  228.419  228.438
   351.0025  175.718  168.855  63.1701  49.5385  49.2585  120.647  119.361  242.882  242.902
   352.0050  185.907  178.663  65.6774  51.5063  51.2165  128.535  127.166  258.763  258.784
   353.0075  197.046  189.387  68.3369  53.594  53.2937  137.223  135.761  276.254  276.276
   354.0100  209.262  201.15  71.1613  55.8113  55.5002  146.823  145.257  295.579  295.603
   355.0125  222.703  214.094  74.1644  58.1692  57.8467  157.465  155.786  317.003  317.029
   356.0150  237.543  228.387  77.3617  60.6799  60.3455  169.307  167.501  340.843  340.871
   357.0175  253.99  244.23  80.7702  63.3569  63.01  182.536  180.589  367.474  367.504
   358.0201  272.293  261.862  84.4091  66.2152  65.8553  197.377  195.27  397.35  397.382
   359.0226  292.751  281.574  88.2994  69.2717  68.8981  214.102  211.816  431.019  431.053
   360.0251  315.727  303.714  92.465  72.5451  72.1573  233.043  230.554  469.15  469.187
   361.0276  341.667  328.715  96.9323  76.0564  75.654  254.61  251.89  512.565  512.606
   362.0301  371.12  357.106  101.731  79.8294  79.4118  279.31  276.325  562.288  562.332
   363.0326  404.774  389.551  106.896  83.8909  83.4577  307.779  304.489  619.598  619.647
   364.0351  443.494  426.886  112.463  88.2711  87.8219  340.823  337.179  686.117  686.171
   365.0376  488.385  470.177  118.477  93.0044  92.5392  379.475  375.416  763.924  763.984
   366.0401  540.875  520.805  124.986  98.1301  97.649  425.074  420.526  855.717  855.784
   367.0426  602.837  580.579  132.047  103.693  103.197  479.386  474.255  965.046  965.121
   368.0451  676.77  651.912  139.722  109.745  109.234  544.769  538.936  1096.66  1096.75
   369.0476  766.061  738.077  148.087  116.346  115.823  624.436  617.748  1257.03  1257.13
   370.0501  875.4  843.605  157.225  123.564  123.032  722.848  715.103  1455.12  1455.24
   371.0526  1011.43  974.918  167.235  131.482  130.947  846.341  837.269  1703.7  1703.83
   372.0551  1183.82  1141.35  178.232  140.195  139.664  1004.15  993.38  2021.34  2021.49
   373.0576  1407.04  1356.89  190.349  149.817  149.304  1210.13  1197.15  2435.95  2436.13
   374.0602  1703.54  1643.23  203.744  160.486  160.01  1485.85  1469.91  2990.9  2991.13
   375.0627  2109.64  2035.46  218.602  172.37  171.965  1866.19  1846.16  3756.42  3756.7
   376.0652  2686.91  2593.1  235.146  185.681  185.403  2410.44  2384.56  4851.79  4852.14
   377.0677  3546.08  3423.14  253.638  200.698  200.641  3225.29  3190.65  6491.68  6492.14
   378.0702  4900.4  4731.66  274.398  217.806  218.144  4516.38  4467.85  9089.86  9090.5
   379.0727  7194.83  6948.69  297.81  237.591  238.664  6713.14  6640.98  13510.2  13511.1
   380.0752  11437.6  11048.6  324.347  261.07  263.592  10789  10673  21711  21712.4
   381.0777  19979.5  19303.2  354.589  290.203  295.77  19013.8  18809.3  38258.7  38261.2
   382.0802  36432.6  35203.3  389.257  327.865  339.425  34866.7  34491.7  70161.3  70165.9
   383.0827  49850.8  48170.4  429.258  367.728  384.096  47734.1  47220.7  96108.3  96115.8
   384.0852  35696.7  34490.8  475.739  395.008  405.798  34013.9  33648.1  68521.2  68527.5
   385.0877  19642.4  18974.7  530.178  427.324  431.792  18507.8  18308.8  37285.5  37289
   386.0902  11422.4  11029.8  594.494  472.38  473.412  10543.7  10430.4  21239.2  21241.2
   387.0927  7374.03  7116.17  671.219  529.811  528.905  6586.11  6515.39  13265.9  13267.1
   388.0952  5224.47  5037.37  763.75  600.822  598.603  4444.41  4396.74  8951.39  8952.17
   389.0977  4003.68  3855.84  876.724  688.418  685.123  3181.27  3147.21  6406.95  6407.51
   390.1003  3285.94  3160.07  1016.6  797.382  793.052  2381.85  2356.43  4796.72  4797.14
   391.1028  2871.55  2756.9  1192.59  934.791  929.342  1846.75  1827.11  3718.92  3719.26
   392.1053  2663.52  2552.41  1418.18  1111.13  1104.37  1472.17  1456.61  2964.47  2964.74
   393.1078  2618.12  2504.01  1713.71  1342.29  1333.89  1200.28  1187.7  2416.85  2417.08
   394.1103  2725.42  2601.64  2111  1653.15  1642.62  996.981  986.666  2007.36  2007.57
   395.1128  3005.07  2863.48  2661.92  2084.3  2070.86  841.169  832.638  1693.5  1693.69
   396.1153  3514.16  3343.35  3455.32  2705.29  2687.7  719.274  712.208  1447.91  1448.09
   397.1178  4372.72  4154.78  4652.71  3642.54  3618.71  622.281  616.491  1252.42  1252.61
   398.1203  5826.73  5530.67  6569.06  5142.59  5108.83  544.081  539.504  1094.67  1094.89
   399.1228  8405.72  7972.6  9870.78  7727.12  7676.25  480.537  477.285  966.25  966.518
   400.1253  13330.3  12636.9  16085  12591.5  12508.5  429.077  427.587  861.761  862.139
   401.1278  23415.4  22190.1  28726.6  22487.3  22338.9  388.741  390.14  778.779  779.393
   402.1303  42025.3  39819.4  51995.8  40702.2  40433.4  359.42  365.655  716.503  717.559
   403.1328  52246.6  49501.9  64791.4  50718.5  50383.5  331.579  340.6  658.664  659.96
   404.1353  34515.7  32703.9  42705.2  33429.5  33208.8  294.702  299.828  587.471  588.338
   405.1378  18824.7  17838.7  23159.4  18129.2  18009.6  262.55  264.225  525.443  525.929
   406.1404  10966.9  10394.1  13382.9  10476.3  10407.1  237.307  237.354  475.97  476.265
   407.1429  7010.8  6645.91  8471.33  6631.46  6587.73  216.562  215.878  434.88  435.077
   408.1454  4832.8  4582.25  5775.38  4521.08  4491.28  198.879  197.862  399.648  399.791
   409.1479  3527.69  3345.56  4166.1  3261.33  3239.86  183.49  182.326  368.885  368.994
   410.1504  2689.86  2551.58  3137.78  2456.36  2440.2  169.928  168.71  341.718  341.806
   411.1529  2121.71  2013.11  2444.14  1913.38  1900.8  157.874  156.65  317.542  317.614
   412.1554  1719.12  1631.51  1955.55  1530.91  1520.85  147.091  145.889  295.898  295.959
   413.1579  1423.49  1351.25  1599.05  1251.84  1243.62  137.397  136.229  276.427  276.48
   414.1604  1199.91  1139.27  1331.28  1042.23  1035.39  128.642  127.517  258.837  258.883
   415.1629  1026.6  974.931  1125.22  880.911  875.138  120.707  119.627  242.887  242.928
   416.1654  889.433  844.845  963.333  754.186  749.247  113.49  112.456  228.377  228.413
   417.1679  778.917  740.018  833.899  652.862  648.59  106.904  105.916  215.135  215.168
   418.1704  688.487  654.231  728.816  570.6  566.87  100.879  99.9351  203.016  203.046
   419.1729  613.493  583.076  642.355  502.917  499.631  95.3502  94.4494  191.897  191.924
   420.1754  550.558  523.355  570.375  446.568  443.653  90.2656  89.4056  181.669  181.694
   421.1779  497.188  472.703  509.821  399.165  396.561  85.5782  84.7568  172.239  172.262
   422.1805  451.507  429.341  458.402  358.912  356.572  81.2475  80.4626  163.526  163.548
   423.1830  412.078  391.909  414.372  324.444  322.33  77.238  76.4877  155.459  155.479
   424.1855  377.789  359.352  376.383  294.705  292.787  73.5186  72.801  147.975  147.994
   425.1880  347.767  330.843  343.38  268.87  267.12  70.0619  69.3751  141.019  141.037
   426.1905  321.318  305.723  314.529  246.285  244.683  66.8438  66.1859  134.544  134.56
   427.1930  297.886  283.465  289.162  226.427  224.955  63.8426  63.2122  128.504  128.52
   428.1955  277.019  263.642  266.741  208.875  207.518  61.0394  60.4347  122.863  122.878
   429.1980  258.348  245.902  246.827  193.287  192.032  58.417  57.8366  117.585  117.6
   430.2005  241.569  229.958  229.06  179.379  178.215  55.9602  55.4028  112.641  112.654
   431.2030  226.429  215.57  213.143  166.92  165.837  53.6553  53.1196  108.002  108.015
   432.2055  212.718  202.538  198.828  155.714  154.705  51.49  50.9749  103.645  103.657
   433.2080  200.257  190.693  185.907  145.6  144.657  49.4534  48.9576  99.5457  99.5572
   434.2105  188.895  179.892  174.204  136.441  135.557  47.5353  47.0579  95.6853  95.6963
   435.2130  178.505  170.013  163.572  128.12  127.29  45.7268  45.2668  92.0454  92.0558
   436.2155  168.977  160.952  153.884  120.538  119.758  44.0196  43.5761  88.6094  88.6193
   437.2180  160.215  152.621  145.031  113.611  112.875  42.4064  41.9785  85.3623  85.3719
   438.2206  152.139  144.94  136.921  107.265  106.571  40.8803  40.4673  82.2907  82.2999
   439.2231  144.677  137.842  129.471  101.437  100.781  39.4352  39.0363  79.382  79.3908
   440.2256  137.768  131.27  122.614  96.0731  95.4516  38.0655  37.6799  76.625  76.6335
   441.2281  131.357  125.171  116.287  91.1252  90.5356  36.7659  36.3931  74.0093  74.0174
   442.2306  125.398  119.501  110.437  86.5517  85.9917  35.5318  35.1712  71.5253  71.5331
   443.2331  119.847  114.22  105.018  82.3162  81.7836  34.3589  34.0098  69.1644  69.1719
   444.2356  114.669  109.293  99.9878  78.3867  77.8793  33.2432  32.9051  66.9186  66.9258
   445.2381  109.831  104.689  95.3108  74.735  74.251  32.181  31.8534  64.7805  64.7875
   446.2406  105.303  100.38  90.9545  71.3361  70.8739  31.1689  30.8514  62.7433  62.7501
   447.2431  101.061  96.3418  86.8904  68.1682  67.7262  30.2039  29.8959  60.8008  60.8073
   448.2456  97.0806  92.5533  83.0929  65.2118  64.7885  29.283  28.9842  58.9472  58.9535
   449.2481  93.3424  88.995  79.5393  62.4501  62.0441  28.4037  28.1136  57.1772  57.1833
   450.0000  90.6868  86.4672  77.0219  60.4975  60.1037  27.7699  27.4862  55.9015  55.9075