Folder: QERaman/examples/graphene/reference/36x36x1

Note: README.md
# QERaman
A open-source program for computing the first-order resonance Raman spectroscopy

File: raman_spectra1.dat
#Raman spectra
#Laser energy   2.33 eV
#Raman shift (cm-1), Raman Spectra (XX,YY,ZZ,s+s+,s-s-,XY,YX,s+s-,s-s+)
  1500  8033.08  7914.15  0.00081313  0.233941  0.234036  8045.83  8045.87  16019.4  16019.1
  1501  8668.18  8539.85  0.000877418  0.252437  0.252539  8681.95  8682  17285.9  17285.5
  1502.01  9381.58  9242.68  0.00094963  0.273212  0.273323  9396.5  9396.55  18708.6  18708.2
  1503.01  10186.7  10035.8  0.00103112  0.296658  0.296779  10202.9  10202.9  20314.1  20313.6
  1504.01  11099.8  10935.5  0.00112356  0.323252  0.323383  11117.5  11117.6  22135.1  22134.6
  1505.01  12141.2  11961.5  0.00122898  0.353581  0.353724  12160.6  12160.7  24211.9  24211.4
  1506.02  13336.1  13138.6  0.00134993  0.388378  0.388536  13357.4  13357.5  26594.7  26594.1
  1507.02  14716  14498.1  0.00148961  0.428564  0.428738  14739.6  14739.7  29346.5  29345.9
  1508.02  16321.1  16079.4  0.00165208  0.475309  0.475502  16347.3  16347.4  32547.5  32546.8
  1509.02  18203  17933.5  0.00184259  0.530118  0.530333  18232.4  18232.5  36300.6  36299.8
  1510.03  20429.2  20126.7  0.00206793  0.59495  0.595192  20462.2  20462.3  40740.1  40739.2
  1511.03  23088.6  22746.7  0.00233713  0.672399  0.672673  23126  23126.1  46043.5  46042.5
  1512.03  26300.8  25911.4  0.0026623  0.765949  0.766261  26343.5  26343.7  52449.5  52448.3
  1513.03  30229.6  29782  0.00306  0.880369  0.880727  30278.9  30279.1  60284.6  60283.2
  1514.04  35103.8  34584.1  0.00355341  1.02232  1.02274  35161.3  35161.5  70005.1  70003.6
  1515.04  41250.8  40640  0.00417567  1.20135  1.20183  41318.7  41319  82264  82262.1
  1516.04  49151.5  48423.8  0.00497546  1.43145  1.43203  49232.9  49233.2  98020.3  98018.1
  1517.04  59535  58653.5  0.00602659  1.73386  1.73456  59634.3  59634.6  118728  118726
  1518.05  73547.2  72458.3  0.00744509  2.14195  2.14283  73671  73671.4  146673  146670
  1519.05  93068  91690.1  0.00942125  2.71049  2.71159  93226.2  93226.8  185605  185601
  1520.05  121341  119545  0.0122835  3.53395  3.53539  121550  121551  241992  241987
  1521.05  164314  161881  0.016634  4.78557  4.78752  164602  164603  327699  327691
  1522.06  233708  230248  0.0236594  6.80676  6.80952  234125  234126  466102  466091
  1523.06  354601  349351  0.0358992  10.328  10.3322  355252  355254  707226  707211
  1524.06  584945  576284  0.0592209  17.0375  17.0444  586053  586056  1.16666e+06  1.16664e+06
  1525.06  1.0556e+06  1.03997e+06  0.106874  30.7468  30.7593  1.05765e+06  1.05765e+06  2.10543e+06  2.10538e+06
  1526.07  1.87486e+06  1.8471e+06  0.189807  54.6068  54.629  1.87829e+06  1.87831e+06  3.73927e+06  3.73919e+06
  1527.07  2.13818e+06  2.10653e+06  0.216406  62.2618  62.2871  2.14115e+06  2.14116e+06  4.26349e+06  4.2634e+06
  1528.07  1.33284e+06  1.31311e+06  0.134877  38.8062  38.822  1.33437e+06  1.33437e+06  2.65734e+06  2.65728e+06
  1529.07  724041  713321  0.0732699  21.0809  21.0895  724880  724884  1.44356e+06  1.44353e+06
  1530.08  423680  417407  0.0428763  12.3361  12.3411  424197  424199  844738  844720
  1531.08  271173  267158  0.0274435  7.89583  7.89904  271518  271520  540683  540671
  1532.08  186450  183690  0.0188698  5.42904  5.43125  186695  186696  371764  371756
  1533.08  135367  133363  0.0137002  3.94167  3.94328  135549  135550  269913  269908
  1534.09  102464  100947  0.0103702  2.98362  2.98483  102604  102604  204309  204304
  1535.09  80127.9  78941.5  0.00810975  2.33325  2.3342  80239  80239.4  159773  159770
  1536.09  64313.5  63361.3  0.00650924  1.87276  1.87353  64403.7  64404.1  128241  128238
  1537.09  52726.3  51945.6  0.00533652  1.53536  1.53599  52800.8  52801.1  105137  105134
  1538.1  43992.4  43341.1  0.00445258  1.28104  1.28156  44055.1  44055.3  87721.6  87719.7
  1539.1  37251.2  36699.6  0.0037703  1.08475  1.08519  37304.6  37304.8  74279.8  74278.2
  1540.1  31942.1  31469.2  0.00323297  0.93015  0.930528  31988.1  31988.3  63693.6  63692.2
  1541.1  27687.9  27278  0.0028024  0.806273  0.8066  27728  27728.2  55210.9  55209.7
  1542.11  24227.6  23868.9  0.00245218  0.70551  0.705797  24262.8  24263  48311  48309.9
  1543.11  21375.8  21059.3  0.00216354  0.622466  0.622719  21407  21407.1  42624.4  42623.5
  1544.11  18998.1  18716.8  0.00192289  0.553229  0.553454  19025.9  19026  37883.2  37882.4
  1545.11  16995.2  16743.6  0.00172017  0.494906  0.495107  17020.1  17020.2  33889.5  33888.7
  1546.12  15292.5  15066.1  0.00154783  0.445323  0.445504  15315  15315.1  30494.2  30493.5
  1547.12  13832.9  13628.1  0.00140011  0.40282  0.402984  13853.3  13853.4  27583.7  27583.1
  1548.12  12572.4  12386.2  0.00127252  0.366114  0.366262  12590.9  12591  25070.2  25069.6
  1549.12  11476.3  11306.4  0.00116159  0.334197  0.334333  11493.3  11493.4  22884.6  22884.1
  1550.13  10517.4  10361.7  0.00106453  0.306273  0.306398  10533  10533.1  20972.5  20972
  1551.13  9673.68  9530.45  0.000979133  0.281703  0.281818  9688.04  9688.09  19290.1  19289.6
  1552.13  8927.42  8795.24  0.000903601  0.259972  0.260078  8940.69  8940.74  17802  17801.6
  1553.13  8264.2  8141.84  0.000836473  0.240659  0.240757  8276.5  8276.54  16479.5  16479.1
  1554.14  7672.15  7558.56  0.000776549  0.223419  0.223509  7683.58  7683.62  15298.9  15298.6
  1555.14  7141.45  7035.72  0.000722834  0.207965  0.208049  7152.11  7152.15  14240.7  14240.3
  1556.14  6663.92  6565.26  0.000674501  0.194059  0.194138  6673.87  6673.91  13288.4  13288.1
  1557.14  6232.69  6140.41  0.000630854  0.181501  0.181575  6242.01  6242.04  12428.5  12428.3
  1558.15  5841.97  5755.48  0.000591307  0.170123  0.170192  5850.71  5850.74  11649.4  11649.2
  1559.15  5486.84  5405.61  0.000555362  0.159782  0.159847  5495.06  5495.09  10941.3  10941
  1560.15  5163.11  5086.67  0.000522596  0.150355  0.150416  5170.85  5170.88  10295.7  10295.5
  1561.15  4867.19  4795.13  0.000492644  0.141737  0.141795  4874.49  4874.52  9705.64  9705.42
  1562.16  4595.99  4527.94  0.000465194  0.13384  0.133894  4602.89  4602.91  9164.83  9164.63
  1563.16  4346.82  4282.46  0.000439974  0.126584  0.126635  4353.35  4353.37  8667.97  8667.78
  1564.16  4117.37  4056.41  0.00041675  0.119902  0.119951  4123.56  4123.58  8210.42  8210.24
  1565.16  3905.6  3847.78  0.000395316  0.113735  0.113782  3911.48  3911.5  7788.15  7787.98
  1566.17  3709.76  3654.83  0.000375493  0.108032  0.108076  3715.34  3715.36  7397.62  7397.46
  1567.17  3528.28  3476.04  0.000357124  0.102747  0.102789  3533.59  3533.61  7035.73  7035.57
  1568.17  3359.78  3310.04  0.00034007  0.0978408  0.0978805  3364.85  3364.86  6699.74  6699.6
  1569.17  3203.08  3155.65  0.000324208  0.0932773  0.0933152  3207.9  3207.92  6387.25  6387.11
  1570.18  3057.08  3011.81  0.000309431  0.0890257  0.0890618  3061.68  3061.7  6096.12  6095.98
  1571.18  2920.83  2877.59  0.00029564  0.0850582  0.0850927  2925.24  2925.25  5824.43  5824.3
  1572.18  2793.49  2752.13  0.000282751  0.0813499  0.0813829  2797.71  2797.72  5570.51  5570.38
  1573.18  2674.3  2634.7  0.000270687  0.077879  0.0779105  2678.34  2678.35  5332.82  5332.71
  1574.19  2562.57  2524.63  0.000259378  0.0746254  0.0746557  2566.44  2566.46  5110.03  5109.92
  1575.19  2457.7  2421.31  0.000248764  0.0715715  0.0716005  2461.41  2461.43  4900.91  4900.8
  1576.19  2359.13  2324.21  0.000238787  0.0687012  0.068729  2362.7  2362.71  4704.36  4704.26
  1577.19  2266.38  2232.83  0.000229399  0.0660001  0.0660269  2269.81  2269.82  4519.4  4519.3
  1578.2  2178.99  2146.73  0.000220553  0.0634552  0.0634809  2182.28  2182.3  4345.13  4345.04
  1579.2  2096.55  2065.51  0.00021221  0.0610546  0.0610794  2099.73  2099.74  4180.75  4180.66
  1580.2  2018.71  1988.82  0.00020433  0.0587877  0.0588116  2021.77  2021.78  4025.52  4025.43
  1581.2  1945.12  1916.32  0.000196882  0.0566448  0.0566677  1948.07  1948.08  3878.78  3878.69
  1582.21  1875.48  1847.71  0.000189833  0.0546168  0.054639  1878.32  1878.33  3739.91  3739.83
  1583.21  1809.52  1782.73  0.000183156  0.0526959  0.0527172  1812.26  1812.27  3608.37  3608.29
  1584.21  1746.97  1721.1  0.000176825  0.0508744  0.0508951  1749.62  1749.63  3483.65  3483.57
  1585.21  1687.61  1662.62  0.000170817  0.0491458  0.0491657  1690.17  1690.18  3365.28  3365.2
  1586.22  1631.22  1607.07  0.00016511  0.0475038  0.0475231  1633.7  1633.71  3252.84  3252.77
  1587.22  1577.62  1554.26  0.000159684  0.0459428  0.0459614  1580.01  1580.02  3145.94  3145.87
  1588.22  1526.61  1504.01  0.000154521  0.0444574  0.0444754  1528.92  1528.93  3044.23  3044.16
  1589.22  1478.04  1456.15  0.000149605  0.0430429  0.0430603  1480.28  1480.29  2947.37  2947.3
  1590.23  1431.74  1410.55  0.000144919  0.0416948  0.0417117  1433.92  1433.92  2855.05  2854.99
  1591.23  1387.59  1367.05  0.00014045  0.0404091  0.0404254  1389.7  1389.71  2767.01  2766.95
  1592.23  1345.45  1325.53  0.000136185  0.0391819  0.0391977  1347.49  1347.5  2682.98  2682.92
  1593.23  1305.2  1285.88  0.000132111  0.0380098  0.0380252  1307.18  1307.19  2602.72  2602.66
  1594.24  1266.73  1247.98  0.000128217  0.0368895  0.0369044  1268.65  1268.66  2526  2525.95
  1595.24  1229.94  1211.73  0.000124492  0.035818  0.0358324  1231.8  1231.81  2452.63  2452.57
  1596.24  1194.72  1177.03  0.000120928  0.0347925  0.0348065  1196.54  1196.54  2382.41  2382.35
  1597.24  1161  1143.81  0.000117515  0.0338104  0.033824  1162.76  1162.77  2315.16  2315.1
  1598.25  1128.68  1111.97  0.000114244  0.0328693  0.0328826  1130.39  1130.4  2250.71  2250.66
  1599.25  1097.69  1081.44  0.000111107  0.0319669  0.0319799  1099.36  1099.37  2188.92  2188.88
  1600  1075.28  1059.36  0.000108839  0.0313143  0.031327  1076.92  1076.92  2144.24  2144.19