Folder: QERaman/examples/graphene/reference/48x48x1

Note: README.md
# QERaman
A open-source program for computing the first-order resonance Raman spectroscopy

File: raman_spectra1.dat
#Raman spectra
#Laser energy   2.33 eV
#Raman shift (cm-1), Raman Spectra (XX,YY,ZZ,s+s+,s-s-,XY,YX,s+s-,s-s+)
  1500  969.719  946.389  0.000304627  0.0795891  0.0796139  971.889  971.892  1929.86  1929.87
  1501  1028.45  1003.71  0.000323077  0.0844093  0.0844356  1030.75  1030.75  2046.74  2046.75
  1502.01  1092.67  1066.39  0.000343253  0.0896807  0.0897086  1095.12  1095.13  2174.56  2174.57
  1503.01  1163.11  1135.12  0.000365378  0.0954613  0.095491  1165.71  1165.72  2314.72  2314.74
  1504.01  1240.56  1210.72  0.000389712  0.101819  0.10185  1243.35  1243.35  2468.88  2468.9
  1505.01  1326.02  1294.12  0.000416557  0.108832  0.108866  1329  1329  2638.95  2638.97
  1506.02  1420.61  1386.43  0.000446272  0.116596  0.116632  1423.8  1423.8  2827.19  2827.21
  1507.02  1525.68  1488.97  0.000479279  0.12522  0.125259  1529.11  1529.11  3036.3  3036.32
  1508.02  1642.83  1603.31  0.000516084  0.134835  0.134877  1646.53  1646.54  3269.46  3269.48
  1509.02  1774  1731.32  0.000557291  0.145601  0.145646  1778  1778.01  3530.51  3530.54
  1510.03  1921.51  1875.28  0.000603629  0.157708  0.157757  1925.84  1925.85  3824.07  3824.1
  1511.03  2088.17  2037.93  0.000655988  0.171387  0.17144  2092.89  2092.9  4155.76  4155.79
  1512.03  2277.46  2222.67  0.000715453  0.186923  0.186981  2282.62  2282.62  4532.48  4532.51
  1513.03  2493.65  2433.66  0.00078337  0.204667  0.204731  2499.3  2499.31  4962.74  4962.78
  1514.04  2742.08  2676.11  0.000861415  0.225058  0.225128  2748.31  2748.32  5457.16  5457.21
  1515.04  3029.48  2956.6  0.000951703  0.248647  0.248724  3036.37  3036.38  6029.14  6029.19
  1516.04  3364.42  3283.48  0.00105693  0.276138  0.276224  3372.09  3372.1  6695.75  6695.8
  1517.04  3757.97  3667.56  0.00118056  0.30844  0.308536  3766.56  3766.57  7478.99  7479.05
  1518.05  4224.59  4122.95  0.00132716  0.346739  0.346847  4234.27  4234.28  8407.67  8407.73
  1519.05  4783.48  4668.4  0.00150274  0.392612  0.392734  4794.47  4794.49  9519.99  9520.06
  1520.05  5460.57  5329.19  0.00171546  0.448187  0.448326  5473.15  5473.17  10867.5  10867.6
  1521.05  6291.49  6140.13  0.00197651  0.516389  0.516549  6306.04  6306.06  12521.3  12521.4
  1522.06  7326.36  7150.1  0.00230163  0.601331  0.601518  7343.37  7343.4  14581  14581.1
  1523.06  8637.28  8429.48  0.00271348  0.708933  0.709153  8657.43  8657.47  17190.1  17190.2
  1524.06  10331  10082.5  0.00324561  0.847957  0.848221  10355.2  10355.3  20561.1  20561.2
  1525.06  12570.7  12268.3  0.00394929  1.0318  1.03212  12600.4  12600.5  25018.8  25019
  1526.07  15615.5  15239.8  0.00490592  1.28173  1.28213  15652.7  15652.8  31079  31079.2
  1527.07  19895.4  19416.7  0.00625063  1.63304  1.63355  19943.2  19943.3  39597.5  39597.8
  1528.07  26162.9  25533.4  0.00821989  2.14752  2.14819  26226.6  26226.7  52072.5  52072.9
  1529.07  35821.4  34959.6  0.0112547  2.94038  2.9413  35910  35910.2  71297.4  71297.9
  1530.08  51691.4  50447.7  0.0162414  4.24318  4.2445  51821.9  51822.1  102887  102888
  1531.08  79936.3  78013.1  0.0251171  6.56196  6.564  80143.5  80143.8  159111  159112
  1532.08  134963  131716  0.0424097  11.0796  11.0831  135324  135325  268652  268654
  1533.08  247283  241334  0.077706  20.3008  20.3071  247954  247955  492240  492244
  1534.09  414325  404357  0.130175  34.0093  34.0199  415343  415344  824647  824654
  1535.09  397100  387546  0.124713  32.5848  32.5949  397839  397840  790127  790134
  1536.09  229462  223941  0.0720551  18.8268  18.8327  229843  229844  456524  456528
  1537.09  126058  123025  0.0395858  10.3431  10.3463  126274  126274  250804  250806
  1538.1  75512.7  73695.9  0.0237144  6.1961  6.19803  75648  75648.3  150246  150247
  1539.1  49290.7  48104.8  0.0154802  4.04463  4.04589  49382.2  49382.4  98075.6  98076.4
  1540.1  34402.2  33574.5  0.0108047  2.82301  2.82389  34467.8  34467.9  68453.1  68453.7
  1541.1  25263.3  24655.5  0.00793465  2.07312  2.07377  25312.4  25312.5  50269.6  50270
  1542.11  19292.6  18828.5  0.0060595  1.58319  1.58368  19330.7  19330.7  38389.5  38389.8
  1543.11  15193.3  14827.7  0.00477203  1.2468  1.24719  15223.6  15223.6  30232.7  30233
  1544.11  12264.1  11969  0.00385205  1.00644  1.00675  12288.8  12288.8  24404.2  24404.4
  1545.11  10101.6  9858.54  0.00317286  0.828981  0.829239  10122.1  10122.1  20101.2  20101.4
  1546.12  8461.3  8257.73  0.00265768  0.694378  0.694594  8478.6  8478.63  16837.4  16837.5
  1547.12  7188.52  7015.57  0.00225792  0.589931  0.590114  7203.29  7203.31  14304.7  14304.8
  1548.12  6181.56  6032.84  0.00194165  0.507297  0.507455  6194.32  6194.34  12301  12301.1
  1549.12  5371.51  5242.28  0.00168722  0.440821  0.440959  5382.65  5382.67  10689.1  10689.2
  1550.13  4710.36  4597.03  0.00147955  0.386564  0.386684  4720.15  4720.17  9373.43  9373.51
  1551.13  4163.82  4063.64  0.00130789  0.341713  0.341819  4172.51  4172.52  8285.87  8285.94
  1552.13  3706.93  3617.74  0.00116438  0.304218  0.304313  3714.68  3714.7  7376.69  7376.75
  1553.13  3321.14  3241.24  0.0010432  0.272558  0.272643  3328.11  3328.12  6609  6609.06
  1554.14  2992.47  2920.47  0.000939967  0.245585  0.245662  2998.76  2998.77  5954.96  5955.01
  1555.14  2710.18  2644.98  0.000851301  0.22242  0.222489  2715.89  2715.9  5393.23  5393.28
  1556.14  2465.97  2406.64  0.000774592  0.202378  0.202441  2471.17  2471.18  4907.26  4907.3
  1557.14  2253.28  2199.07  0.000707787  0.184924  0.184981  2258.05  2258.05  4484.03  4484.06
  1558.15  2066.94  2017.21  0.000649253  0.169631  0.169683  2071.31  2071.32  4113.2  4113.23
  1559.15  1902.75  1856.97  0.000597682  0.156156  0.156205  1906.78  1906.79  3786.48  3786.51
  1560.15  1757.36  1715.08  0.000552013  0.144224  0.144269  1761.09  1761.09  3497.15  3497.18
  1561.15  1627.99  1588.83  0.000511378  0.133608  0.133649  1631.45  1631.46  3239.72  3239.74
  1562.16  1512.39  1476  0.000475066  0.124121  0.124159  1515.61  1515.61  3009.67  3009.69
  1563.16  1408.67  1374.77  0.000442485  0.115608  0.115644  1411.66  1411.67  2803.26  2803.28
  1564.16  1315.25  1283.6  0.000413141  0.107941  0.107975  1318.05  1318.05  2617.36  2617.38
  1565.16  1230.81  1201.2  0.00038662  0.101012  0.101044  1233.44  1233.44  2449.34  2449.36
  1566.17  1154.25  1126.48  0.000362571  0.0947289  0.0947584  1156.71  1156.72  2296.98  2297
  1567.17  1084.61  1058.52  0.000340696  0.0890137  0.0890414  1086.93  1086.93  2158.39  2158.41
  1568.17  1021.08  996.517  0.000320741  0.0838001  0.0838262  1023.27  1023.27  2031.97  2031.99
  1569.17  962.974  939.806  0.000302488  0.0790312  0.0790558  965.033  965.037  1916.34  1916.35
  1570.18  909.684  887.798  0.000285749  0.0746578  0.0746811  911.631  911.635  1810.29  1810.31
  1571.18  860.696  839.989  0.000270361  0.0706374  0.0706594  862.539  862.543  1712.81  1712.82
  1572.18  815.559  795.938  0.000256183  0.0669331  0.0669539  817.307  817.31  1622.98  1623
  1573.18  773.88  755.261  0.000243091  0.0635125  0.0635323  775.539  775.542  1540.04  1540.05
  1574.19  735.314  717.623  0.000230977  0.0603475  0.0603663  736.891  736.894  1463.3  1463.31
  1575.19  699.56  682.729  0.000219746  0.0574132  0.057431  701.061  701.063  1392.14  1392.15
  1576.19  666.35  650.318  0.000209314  0.0546876  0.0547047  667.78  667.783  1326.06  1326.07
  1577.19  635.448  620.16  0.000199608  0.0521516  0.0521679  636.813  636.816  1264.56  1264.57
  1578.2  606.647  592.052  0.000190561  0.0497879  0.0498034  607.951  607.953  1207.25  1207.26
  1579.2  579.759  565.811  0.000182115  0.0475813  0.0475961  581.006  581.008  1153.74  1153.75
  1580.2  554.62  541.276  0.000174218  0.0455181  0.0455323  555.813  555.815  1103.71  1103.72
  1581.2  531.08  518.303  0.000166824  0.0435862  0.0435998  532.223  532.225  1056.87  1056.88
  1582.21  509.007  496.761  0.00015989  0.0417747  0.0417877  510.103  510.105  1012.94  1012.95
  1583.21  488.282  476.535  0.00015338  0.0400738  0.0400863  489.333  489.335  971.699  971.706
  1584.21  468.797  457.518  0.000147259  0.0384747  0.0384867  469.806  469.808  932.923  932.93
  1585.21  450.455  439.617  0.000141498  0.0369694  0.0369809  451.425  451.427  896.421  896.428
  1586.22  433.168  422.747  0.000136068  0.0355507  0.0355617  434.102  434.103  862.021  862.027
  1587.22  416.857  406.828  0.000130944  0.034212  0.0342227  417.756  417.758  829.562  829.569
  1588.22  401.451  391.792  0.000126105  0.0329476  0.0329579  402.316  402.318  798.903  798.909
  1589.22  386.882  377.575  0.000121529  0.031752  0.0317619  387.717  387.718  769.911  769.917
  1590.23  373.093  364.117  0.000117197  0.0306203  0.0306299  373.898  373.899  742.47  742.475
  1591.23  360.027  351.365  0.000113093  0.029548  0.0295572  360.804  360.805  716.469  716.474
  1592.23  347.636  339.272  0.000109201  0.0285311  0.02854  348.386  348.388  691.81  691.815
  1593.23  335.874  327.793  0.000105506  0.0275657  0.0275743  336.599  336.6  668.402  668.407
  1594.24  324.698  316.886  0.000101995  0.0266486  0.0266569  325.399  325.4  646.163  646.168
  1595.24  314.071  306.515  9.86571e-05  0.0257764  0.0257844  314.749  314.75  625.014  625.019
  1596.24  303.957  296.644  9.54801e-05  0.0249463  0.0249541  304.614  304.615  604.887  604.892
  1597.24  294.324  287.243  9.24541e-05  0.0241557  0.0241633  294.96  294.961  585.717  585.722
  1598.25  285.141  278.281  8.95697e-05  0.0234021  0.0234094  285.757  285.759  567.444  567.448
  1599.25  276.382  269.732  8.68182e-05  0.0226833  0.0226903  276.979  276.98  550.012  550.016
  1600  270.074  263.577  8.48369e-05  0.0221656  0.0221725  270.658  270.659  537.46  537.464