Folder: QERaman/examples/graphene/reference/60x60x1

Note: README.md
# QERaman
A open-source program for computing the first-order resonance Raman spectroscopy

File: raman_spectra1.dat
#Raman spectra
#Laser energy   2.33 eV
#Raman shift (cm-1), Raman Spectra (XX,YY,ZZ,s+s+,s-s-,XY,YX,s+s-,s-s+)
  1500  531.742  532.357  0.000166462  0.0416819  0.0416606  531.598  531.594  1063.59  1063.62
  1501  560.284  560.932  0.000175397  0.0439193  0.0438968  560.133  560.129  1120.68  1120.72
  1502.01  591.186  591.87  0.000185071  0.0463416  0.0463179  591.028  591.023  1182.49  1182.53
  1503.01  624.716  625.438  0.000195568  0.0489699  0.0489449  624.549  624.544  1249.55  1249.6
  1504.01  661.178  661.942  0.000206983  0.0518281  0.0518016  661.002  660.997  1322.49  1322.53
  1505.01  700.926  701.736  0.000219426  0.0549439  0.0549158  700.74  700.735  1401.99  1402.04
  1506.02  744.365  745.226  0.000233025  0.058349  0.0583192  744.17  744.164  1488.88  1488.93
  1507.02  791.968  792.884  0.000247928  0.0620805  0.0620488  791.762  791.755  1584.1  1584.15
  1508.02  844.284  845.26  0.000264305  0.0661814  0.0661476  844.065  844.058  1688.74  1688.8
  1509.02  901.954  902.997  0.000282359  0.0707021  0.070666  901.722  901.715  1804.09  1804.15
  1510.03  965.735  966.852  0.000302327  0.0757018  0.0756631  965.488  965.48  1931.67  1931.73
  1511.03  1036.52  1037.72  0.000324487  0.0812505  0.081209  1036.26  1036.25  2073.26  2073.33
  1512.03  1115.37  1116.66  0.000349172  0.0874317  0.087387  1115.09  1115.08  2230.98  2231.06
  1513.03  1203.56  1204.96  0.000376782  0.094345  0.0942968  1203.27  1203.26  2407.39  2407.47
  1514.04  1302.63  1304.14  0.000407796  0.102111  0.102058  1302.31  1302.3  2605.54  2605.63
  1515.04  1414.43  1416.07  0.000442796  0.110875  0.110818  1414.09  1414.07  2829.17  2829.26
  1516.04  1541.24  1543.02  0.000482495  0.120815  0.120753  1540.87  1540.86  3082.82  3082.92
  1517.04  1685.86  1687.81  0.000527772  0.132152  0.132084  1685.46  1685.45  3372.1  3372.22
  1518.05  1851.8  1853.94  0.000579721  0.14516  0.145085  1851.36  1851.35  3704.02  3704.14
  1519.05  2043.43  2045.8  0.000639716  0.160182  0.1601  2042.96  2042.95  4087.34  4087.48
  1520.05  2266.35  2268.97  0.000709504  0.177656  0.177566  2265.84  2265.82  4533.23  4533.39
  1521.05  2527.72  2530.65  0.000791333  0.198146  0.198044  2527.17  2527.15  5056.06  5056.23
  1522.06  2836.91  2840.19  0.000888131  0.222383  0.222269  2836.3  2836.28  5674.52  5674.71
  1523.06  3206.27  3209.98  0.00100377  0.251338  0.25121  3205.6  3205.58  6413.36  6413.58
  1524.06  3652.44  3656.66  0.00114345  0.286314  0.286167  3651.7  3651.67  7305.82  7306.08
  1525.06  4198.16  4203.01  0.00131431  0.329094  0.328926  4197.34  4197.31  8397.44  8397.73
  1526.07  4875.23  4880.86  0.00152629  0.382172  0.381976  4874.33  4874.29  9751.8  9752.14
  1527.07  5729.14  5735.76  0.00179363  0.449113  0.448883  5728.14  5728.1  11459.9  11460.3
  1528.07  6826.73  6834.62  0.00213728  0.535158  0.534884  6825.63  6825.57  13655.5  13656
  1529.07  8269.35  8278.91  0.00258896  0.648252  0.647921  8268.14  8268.07  16541.3  16541.9
  1530.08  10216.3  10228.1  0.00319854  0.800885  0.800476  10215  10214.9  20436  20436.7
  1531.08  12928.9  12943.8  0.00404788  1.01355  1.01303  12927.5  12927.4  25862.4  25863.3
  1532.08  16858.2  16877.7  0.00527821  1.3216  1.32093  16856.9  16856.8  33722.9  33724.1
  1533.08  22831.5  22857.9  0.00714859  1.78991  1.789  22830.5  22830.3  45672.4  45674.1
  1534.09  32479  32516.6  0.0101696  2.54632  2.54502  32479.2  32478.9  64973.1  64975.5
  1535.09  49290.7  49347.7  0.0154343  3.86447  3.86249  49293.9  49293.5  98607.2  98610.9
  1536.09  81331.2  81425.3  0.0254685  6.37677  6.3735  81342.8  81342.2  162711  162717
  1537.09  146803  146972  0.0459727  11.5104  11.5046  146832  146831  293702  293714
  1538.1  260607  260908  0.0816029  20.4319  20.4214  260622  260620  521349  521368
  1539.1  296612  296955  0.0928379  23.2473  23.2354  296462  296459  593211  593231
  1540.1  184690  184904  0.0577934  14.4727  14.4653  184539  184537  369315  369326
  1541.1  100337  100453  0.0313981  7.86273  7.85871  100257  100256  200640  200646
  1542.11  58729.4  58797.3  0.0183791  4.60244  4.60008  58687.2  58686.7  117444  117447
  1543.11  37598.3  37641.8  0.0117668  2.94657  2.94507  37573.8  37573.5  75189.6  75191.9
  1544.11  25856.2  25886.1  0.00809228  2.0264  2.02537  25840.7  25840.5  51708.8  51710.5
  1545.11  18774.8  18796.5  0.00587617  1.47145  1.4707  18764.3  18764.1  37547.8  37549
  1546.12  14212.8  14229.2  0.00444844  1.11393  1.11336  14205.2  14205.1  28424.6  28425.5
  1547.12  11115.5  11128.4  0.00347909  0.871192  0.870746  11109.9  11109.8  22230.5  22231.3
  1548.12  8922.32  8932.64  0.00279268  0.699306  0.698948  8917.98  8917.91  17844.4  17845
  1549.12  7315.22  7323.68  0.00228968  0.573351  0.573058  7311.77  7311.72  14630.4  14630.9
  1550.13  6103.77  6110.83  0.00191052  0.478404  0.478159  6100.98  6100.93  12207.6  12208
  1551.13  5168.66  5174.64  0.00161784  0.405114  0.404907  5166.35  5166.31  10337.4  10337.7
  1552.13  4432.17  4437.29  0.00138732  0.347391  0.347213  4430.23  4430.2  8864.45  8864.74
  1553.13  3841.99  3846.43  0.00120259  0.301134  0.30098  3840.35  3840.32  7684.12  7684.37
  1554.14  3361.92  3365.81  0.00105233  0.263508  0.263373  3360.51  3360.48  6723.98  6724.21
  1555.14  2966.26  2969.69  0.000928487  0.232497  0.232378  2965.03  2965.01  5932.66  5932.86
  1556.14  2636.37  2639.41  0.000825228  0.20664  0.206534  2635.29  2635.27  5272.87  5273.05
  1557.14  2358.47  2361.2  0.000738245  0.184859  0.184764  2357.52  2357.5  4717.08  4717.23
  1558.15  2122.21  2124.66  0.000664294  0.166341  0.166256  2121.36  2121.35  4244.56  4244.7
  1559.15  1919.69  1921.91  0.000600902  0.150468  0.150391  1918.93  1918.91  3839.5  3839.63
  1560.15  1744.78  1746.8  0.000546153  0.136758  0.136688  1744.1  1744.08  3489.68  3489.8
  1561.15  1592.69  1594.53  0.000498548  0.124838  0.124774  1592.07  1592.06  3185.5  3185.61
  1562.16  1459.63  1461.32  0.000456897  0.114408  0.11435  1459.07  1459.05  2919.37  2919.47
  1563.16  1342.55  1344.1  0.000420249  0.105231  0.105178  1342.03  1342.02  2685.2  2685.29
  1564.16  1238.99  1240.42  0.000387834  0.0971147  0.097065  1238.52  1238.51  2478.08  2478.16
  1565.16  1146.95  1148.28  0.000359026  0.0899009  0.089855  1146.52  1146.51  2294.01  2294.08
  1566.17  1064.79  1066.03  0.000333308  0.0834612  0.0834185  1064.4  1064.39  2129.68  2129.75
  1567.17  991.148  992.295  0.000310255  0.0776888  0.077649  990.78  990.772  1982.39  1982.45
  1568.17  924.879  925.949  0.000289512  0.0724945  0.0724575  924.537  924.53  1849.84  1849.91
  1569.17  865.035  866.035  0.00027078  0.0678039  0.0677692  864.717  864.71  1730.15  1730.21
  1570.18  810.812  811.75  0.000253807  0.0635538  0.0635213  810.515  810.508  1621.7  1621.76
  1571.18  761.528  762.408  0.00023838  0.0596908  0.0596603  761.25  761.244  1523.13  1523.18
  1572.18  716.601  717.43  0.000224317  0.0561694  0.0561407  716.341  716.335  1433.27  1433.32
  1573.18  675.533  676.314  0.000211461  0.0529505  0.0529234  675.289  675.283  1351.13  1351.18
  1574.19  637.895  638.632  0.00019968  0.0500003  0.0499747  637.665  637.66  1275.85  1275.9
  1575.19  603.314  604.012  0.000188855  0.0472898  0.0472657  603.098  603.093  1206.69  1206.73
  1576.19  571.47  572.131  0.000178887  0.0447938  0.0447709  571.265  571.261  1143  1143.04
  1577.19  542.081  542.707  0.000169688  0.0424902  0.0424685  541.887  541.883  1084.22  1084.25
  1578.2  514.9  515.495  0.000161179  0.0403598  0.0403391  514.717  514.713  1029.85  1029.89
  1579.2  489.713  490.279  0.000153295  0.0383855  0.0383659  489.539  489.535  979.478  979.511
  1580.2  466.328  466.868  0.000145975  0.0365526  0.0365339  466.163  466.16  932.707  932.739
  1581.2  444.579  445.093  0.000139167  0.0348479  0.03483  444.422  444.419  889.207  889.237
  1582.21  424.316  424.807  0.000132824  0.0332596  0.0332426  424.167  424.163  848.679  848.708
  1583.21  405.407  405.876  0.000126905  0.0317774  0.0317612  405.264  405.261  810.859  810.886
  1584.21  387.733  388.182  0.000121373  0.0303922  0.0303766  387.598  387.595  775.51  775.536
  1585.21  371.191  371.62  0.000116195  0.0290955  0.0290806  371.061  371.058  742.423  742.448
  1586.22  355.684  356.095  0.000111341  0.02788  0.0278658  355.56  355.557  711.408  711.432
  1587.22  341.129  341.523  0.000106784  0.0267392  0.0267255  341.01  341.007  682.296  682.319
  1588.22  327.449  327.827  0.000102502  0.0256669  0.0256538  327.335  327.332  654.935  654.957
  1589.22  314.575  314.939  9.84724e-05  0.0246578  0.0246452  314.466  314.464  629.186  629.208
  1590.23  302.446  302.795  9.46755e-05  0.0237071  0.023695  302.341  302.339  604.927  604.947
  1591.23  291.004  291.341  9.10941e-05  0.0228103  0.0227986  290.904  290.902  582.043  582.063
  1592.23  280.2  280.524  8.7712e-05  0.0219634  0.0219522  280.104  280.101  560.433  560.452
  1593.23  269.986  270.299  8.45148e-05  0.0211628  0.021152  269.893  269.891  540.005  540.023
  1594.24  260.321  260.622  8.14892e-05  0.0204052  0.0203948  260.231  260.229  520.673  520.69
  1595.24  251.165  251.456  7.86232e-05  0.0196876  0.0196775  251.079  251.077  502.36  502.377
  1596.24  242.484  242.764  7.59058e-05  0.0190071  0.0189974  242.401  242.399  484.997  485.013
  1597.24  234.245  234.516  7.33268e-05  0.0183613  0.018352  234.165  234.163  468.518  468.534
  1598.25  226.419  226.681  7.0877e-05  0.0177479  0.0177388  226.342  226.34  452.865  452.881
  1599.25  218.979  219.232  6.85479e-05  0.0171647  0.0171559  218.904  218.902  437.984  437.998
  1600  213.636  213.883  6.68756e-05  0.016746  0.0167374  213.563  213.562  427.298  427.313