Folder: QERaman/examples/graphene/reference/72x72x1

Note: README.md
# QERaman
A open-source program for computing the first-order resonance Raman spectroscopy

File: raman_spectra1.dat
#Raman spectra
#Laser energy   2.33 eV
#Raman shift (cm-1), Raman Spectra (XX,YY,ZZ,s+s+,s-s-,XY,YX,s+s-,s-s+)
  1500  640.571  639.525  0.000107617  0.0281666  0.0281804  640.62  640.622  1280.62  1280.66
  1501  674.46  673.359  0.000113311  0.0296567  0.0296711  674.512  674.514  1348.37  1348.41
  1502.01  711.109  709.948  0.000119468  0.0312681  0.0312833  711.165  711.167  1421.64  1421.68
  1503.01  750.826  749.6  0.00012614  0.0330144  0.0330305  750.886  750.888  1501.04  1501.09
  1504.01  793.964  792.668  0.000133387  0.0349111  0.0349281  794.028  794.03  1587.29  1587.33
  1505.01  840.926  839.553  0.000141277  0.036976  0.036994  840.995  840.998  1681.17  1681.22
  1506.02  892.178  890.721  0.000149887  0.0392295  0.0392486  892.252  892.255  1783.64  1783.69
  1507.02  948.258  946.71  0.000159309  0.0416953  0.0417156  948.339  948.341  1895.75  1895.81
  1508.02  1009.79  1008.14  0.000169647  0.0444008  0.0444225  1009.88  1009.88  2018.77  2018.83
  1509.02  1077.51  1075.75  0.000181023  0.0473783  0.0474014  1077.6  1077.61  2154.16  2154.22
  1510.03  1152.27  1150.39  0.000193583  0.0506654  0.0506901  1152.37  1152.37  2303.61  2303.68
  1511.03  1235.07  1233.06  0.000207495  0.0543064  0.0543328  1235.19  1235.19  2469.17  2469.24
  1512.03  1327.13  1324.96  0.00022296  0.0583539  0.0583824  1327.25  1327.26  2653.2  2653.28
  1513.03  1429.86  1427.52  0.000240219  0.0628709  0.0629015  1430  1430  2858.58  2858.67
  1514.04  1544.98  1542.45  0.000259559  0.0679326  0.0679657  1545.13  1545.13  3088.73  3088.82
  1515.04  1674.55  1671.82  0.000281329  0.0736301  0.073666  1674.73  1674.73  3347.79  3347.89
  1516.04  1821.12  1818.14  0.000305952  0.0800745  0.0801135  1821.31  1821.32  3640.81  3640.92
  1517.04  1987.76  1984.52  0.00033395  0.0874019  0.0874445  1987.98  1987.99  3973.98  3974.1
  1518.05  2178.33  2174.77  0.000365965  0.0957811  0.0958277  2178.57  2178.58  4354.96  4355.1
  1519.05  2397.61  2393.69  0.000402806  0.105423  0.105474  2397.88  2397.89  4793.36  4793.5
  1520.05  2651.66  2647.33  0.000445488  0.116593  0.11665  2651.97  2651.98  5301.27  5301.43
  1521.05  2948.22  2943.4  0.000495312  0.129633  0.129696  2948.58  2948.59  5894.18  5894.35
  1522.06  3297.3  3291.91  0.00055396  0.144983  0.145053  3297.72  3297.73  6592.09  6592.29
  1523.06  3712.03  3705.96  0.000623639  0.163219  0.163298  3712.53  3712.54  7421.25  7421.48
  1524.06  4209.89  4203.02  0.000707286  0.185111  0.185201  4210.49  4210.5  8416.64  8416.89
  1525.06  4814.59  4806.73  0.000808883  0.2117  0.211803  4815.31  4815.32  9625.62  9625.91
  1526.07  5558.85  5549.77  0.000933928  0.244427  0.244546  5559.73  5559.74  11113.6  11114
  1527.07  6488.87  6478.27  0.00109019  0.285322  0.285461  6489.96  6489.98  12973.1  12973.4
  1528.07  7671.54  7659.01  0.00128889  0.337327  0.337491  7672.92  7672.94  15337.6  15338.1
  1529.07  9206.49  9191.46  0.0015468  0.404824  0.405021  9208.27  9208.3  18406.6  18407.1
  1530.08  11247.2  11228.8  0.00188967  0.49456  0.494801  11249.5  11249.6  22486.7  22487.4
  1531.08  14039.3  14016.4  0.00235882  0.617342  0.617643  14042.5  14042.5  28069.3  28070.2
  1532.08  17994.9  17965.5  0.00302348  0.791292  0.791677  17999.5  17999.5  35978.3  35979.4
  1533.08  23844  23805.1  0.00400633  1.04852  1.04903  23850.9  23850.9  47673.7  47675.1
  1534.09  32968.2  32914.4  0.00553955  1.44978  1.45049  32979  32979.1  65917.8  65919.9
  1535.09  48191.6  48112.9  0.0080978  2.1193  2.12033  48209.9  48210  96358.5  96361.6
  1536.09  75792.1  75668.4  0.0127363  3.33322  3.33484  75826.3  75826.5  151551  151556
  1537.09  130503  130290  0.0219313  5.73962  5.74242  130572  130573  260959  260968
  1538.1  240587  240195  0.0404313  10.5812  10.5864  240717  240717  481090  481106
  1539.1  373755  373145  0.0627944  16.4344  16.4424  373822  373823  747245  747268
  1540.1  310577  310070  0.0521594  13.6517  13.6583  310462  310462  620764  620781
  1541.1  172733  172451  0.0290071  7.59209  7.59579  172649  172650  345230  345239
  1542.11  96302.7  96145.4  0.0161728  4.23294  4.235  96262.2  96262.4  192480  192485
  1543.11  58810.4  58714.4  0.00987702  2.58511  2.58637  58790.2  58790.4  117549  117552
  1544.11  38988.1  38924.4  0.00654821  1.71385  1.71469  38977.1  38977.2  77930.6  77932.7
  1545.11  27533.7  27488.8  0.00462455  1.21037  1.21096  27527.2  27527.3  55036.5  55038
  1546.12  20402.1  20368.8  0.00342682  0.896888  0.897325  20398  20398  40782  40783.1
  1547.12  15689.9  15664.3  0.00263539  0.68975  0.690086  15687.2  15687.2  31363.2  31364
  1548.12  12425.3  12405  0.00208707  0.54624  0.546506  12423.4  12423.4  24837.6  24838.3
  1549.12  10075.3  10058.9  0.00169238  0.442938  0.443153  10074  10074  20140.4  20141
  1550.13  8329.97  8316.37  0.00139922  0.36621  0.366389  8328.97  8329  16651.6  16652
  1551.13  6999.37  6987.95  0.00117572  0.307716  0.307866  6998.62  6998.65  13991.8  13992.2
  1552.13  5962.44  5952.7  0.00100155  0.262131  0.262259  5961.86  5961.88  11919  11919.4
  1553.13  5139.05  5130.66  0.000863248  0.225933  0.226043  5138.6  5138.62  10273.1  10273.4
  1554.14  4474.56  4467.26  0.000751633  0.196721  0.196817  4474.21  4474.22  8944.8  8945.06
  1555.14  3930.7  3924.28  0.000660279  0.172811  0.172895  3930.41  3930.42  7857.62  7857.85
  1556.14  3480.01  3474.33  0.000584576  0.152998  0.153072  3479.78  3479.79  6956.71  6956.91
  1557.14  3102.43  3097.36  0.000521152  0.136398  0.136465  3102.24  3102.25  6201.92  6202.1
  1558.15  2782.99  2778.45  0.000467493  0.122355  0.122414  2782.83  2782.84  5563.35  5563.51
  1559.15  2510.36  2506.26  0.000421698  0.110369  0.110423  2510.23  2510.24  5018.37  5018.51
  1560.15  2275.85  2272.13  0.000382305  0.100059  0.100107  2275.74  2275.74  4549.56  4549.69
  1561.15  2072.66  2069.28  0.000348175  0.0911262  0.0911705  2072.57  2072.58  4143.4  4143.52
  1562.16  1895.49  1892.39  0.000318413  0.0833367  0.0833773  1895.41  1895.41  3789.21  3789.32
  1563.16  1740.06  1737.22  0.000292304  0.0765035  0.0765408  1739.99  1740  3478.51  3478.61
  1564.16  1602.97  1600.35  0.000269276  0.0704765  0.0705108  1602.91  1602.92  3204.46  3204.55
  1565.16  1481.45  1479.03  0.000248862  0.0651337  0.0651655  1481.4  1481.4  2961.53  2961.61
  1566.17  1373.22  1370.98  0.000230682  0.0603756  0.0604051  1373.18  1373.18  2745.18  2745.26
  1567.17  1276.42  1274.34  0.000214422  0.05612  0.0561473  1276.39  1276.39  2551.67  2551.75
  1568.17  1189.5  1187.56  0.000199821  0.0522985  0.0523239  1189.47  1189.47  2377.91  2377.98
  1569.17  1111.15  1109.34  0.00018666  0.0488541  0.0488779  1111.13  1111.13  2221.29  2221.36
  1570.18  1040.29  1038.6  0.000174757  0.0457388  0.0457611  1040.27  1040.28  2079.64  2079.7
  1571.18  975.999  974.405  0.000163957  0.042912  0.0429329  975.98  975.982  1951.11  1951.17
  1572.18  917.48  915.982  0.000154127  0.0403392  0.0403589  917.463  917.466  1834.13  1834.18
  1573.18  864.067  862.656  0.000145154  0.0379909  0.0380095  864.052  864.055  1727.35  1727.4
  1574.19  815.183  813.851  0.000136942  0.0358417  0.0358592  815.17  815.173  1629.63  1629.68
  1575.19  770.33  769.072  0.000129408  0.0338698  0.0338863  770.319  770.321  1539.96  1540.01
  1576.19  729.077  727.887  0.000122478  0.0320561  0.0320717  729.068  729.07  1457.5  1457.54
  1577.19  691.05  689.921  0.00011609  0.0303842  0.0303991  691.042  691.044  1381.48  1381.52
  1578.2  655.92  654.849  0.000110189  0.0288398  0.0288538  655.914  655.916  1311.25  1311.29
  1579.2  623.402  622.384  0.000104726  0.0274101  0.0274234  623.396  623.398  1246.24  1246.28
  1580.2  593.241  592.273  9.96598e-05  0.0260841  0.0260968  593.236  593.238  1185.95  1185.99
  1581.2  565.217  564.294  9.49521e-05  0.0248519  0.0248641  565.213  565.215  1129.93  1129.96
  1582.21  539.131  538.251  9.05702e-05  0.0237051  0.0237167  539.128  539.13  1077.78  1077.81
  1583.21  514.81  513.97  8.64846e-05  0.0226358  0.0226469  514.808  514.809  1029.16  1029.19
  1584.21  492.098  491.294  8.26692e-05  0.0216372  0.0216478  492.096  492.097  983.757  983.785
  1585.21  470.855  470.087  7.91008e-05  0.0207033  0.0207134  470.854  470.855  941.291  941.318
  1586.22  450.959  450.222  7.57585e-05  0.0198285  0.0198382  450.957  450.959  901.516  901.542
  1587.22  432.297  431.591  7.26235e-05  0.019008  0.0190173  432.296  432.297  864.208  864.234
  1588.22  414.769  414.092  6.96791e-05  0.0182374  0.0182463  414.768  414.77  829.169  829.193
  1589.22  398.286  397.636  6.69102e-05  0.0175127  0.0175213  398.286  398.287  796.218  796.241
  1590.23  382.766  382.141  6.4303e-05  0.0168304  0.0168386  382.766  382.767  765.192  765.214
  1591.23  368.135  367.534  6.18453e-05  0.0161871  0.016195  368.135  368.137  735.944  735.965
  1592.23  354.327  353.749  5.95258e-05  0.0155801  0.0155877  354.328  354.329  708.341  708.361
  1593.23  341.282  340.725  5.73343e-05  0.0150065  0.0150139  341.283  341.284  682.262  682.282
  1594.24  328.944  328.407  5.52616e-05  0.0144641  0.0144711  328.945  328.946  657.596  657.615
  1595.24  317.263  316.745  5.32993e-05  0.0139505  0.0139573  317.264  317.264  634.244  634.263
  1596.24  306.193  305.693  5.14397e-05  0.0134638  0.0134704  306.194  306.195  612.114  612.132
  1597.24  295.692  295.209  4.96757e-05  0.0130021  0.0130085  295.693  295.694  591.122  591.139
  1598.25  285.722  285.255  4.80009e-05  0.0125638  0.0125699  285.723  285.724  571.192  571.208
  1599.25  276.248  275.797  4.64094e-05  0.0121472  0.0121532  276.249  276.25  552.252  552.268
  1600  269.448  269.008  4.52671e-05  0.0118483  0.0118541  269.45  269.45  538.658  538.674